# curve data: Susi_B811.dat
TITLE=FILTER 811  Transmission Curve;DTITL= 2.0;LABX=Lambda [nm];LABY=Transmission;DLABL= 1.0;NGEOM;USER;GRID;XSPACE=0
300.000000 1.000000e-05
343.000000 0.000000e+00
345.500000 1.100000e-04
346.500000 2.600000e-04
347.000000 3.700000e-04
347.500000 5.600000e-04
348.000000 8.100000e-04
348.500000 1.170000e-03
349.000000 1.650000e-03
349.500000 2.250000e-03
350.000000 3.030000e-03
350.500000 4.010000e-03
351.000000 5.220000e-03
351.500000 6.740000e-03
352.000000 8.510000e-03
352.500000 1.044000e-02
353.000000 1.268000e-02
353.500000 1.545000e-02
354.000000 1.867000e-02
354.500000 2.235000e-02
355.000000 2.665000e-02
355.500000 3.145000e-02
356.000000 3.674000e-02
356.500000 4.254000e-02
357.000000 4.867000e-02
357.500000 5.553000e-02
358.000000 6.281000e-02
358.500000 7.069000e-02
359.000000 7.905000e-02
359.500000 8.772000e-02
360.000000 9.676000e-02
360.500000 1.062500e-01
361.000000 1.159300e-01
361.500000 1.259800e-01
362.000000 1.362900e-01
362.500000 1.465300e-01
363.000000 1.570300e-01
363.500000 1.676800e-01
364.000000 1.786600e-01
364.500000 1.897000e-01
365.000000 2.008600e-01
365.500000 2.120000e-01
366.000000 2.229600e-01
366.500000 2.339000e-01
367.000000 2.452000e-01
367.500000 2.561700e-01
368.000000 2.672700e-01
368.500000 2.781500e-01
369.000000 2.887900e-01
369.500000 2.993500e-01
370.000000 3.098800e-01
370.500000 3.203500e-01
371.000000 3.308400e-01
371.500000 3.409300e-01
372.000000 3.507300e-01
372.500000 3.603400e-01
373.000000 3.700600e-01
373.500000 3.791700e-01
374.000000 3.877000e-01
374.500000 3.962300e-01
375.000000 4.048400e-01
375.500000 4.134200e-01
376.000000 4.219000e-01
376.500000 4.305100e-01
377.000000 4.391500e-01
377.500000 4.475500e-01
378.000000 4.557400e-01
378.500000 4.636700e-01
379.000000 4.712300e-01
379.500000 4.787700e-01
380.000000 4.862500e-01
380.500000 4.937100e-01
381.000000 5.010400e-01
381.500000 5.079800e-01
382.000000 5.147200e-01
382.500000 5.211200e-01
383.000000 5.275200e-01
383.500000 5.338400e-01
384.000000 5.401000e-01
384.500000 5.461800e-01
385.000000 5.520100e-01
385.500000 5.576700e-01
386.000000 5.631600e-01
386.500000 5.688100e-01
387.000000 5.738900e-01
387.500000 5.794200e-01
388.000000 5.843000e-01
388.500000 5.892800e-01
389.000000 5.938000e-01
389.500000 5.986600e-01
390.000000 6.031400e-01
390.500000 6.077200e-01
391.000000 6.117700e-01
391.500000 6.158700e-01
392.000000 6.196500e-01
392.500000 6.232300e-01
393.000000 6.270400e-01
393.500000 6.303700e-01
394.000000 6.339500e-01
394.500000 6.370700e-01
395.000000 6.397100e-01
395.500000 6.425700e-01
396.000000 6.450500e-01
396.500000 6.478300e-01
397.000000 6.504200e-01
397.500000 6.529000e-01
398.000000 6.552300e-01
398.500000 6.575000e-01
399.000000 6.600000e-01
399.500000 6.619300e-01
400.000000 6.637800e-01
400.500000 6.655300e-01
401.000000 6.677100e-01
401.500000 6.691000e-01
402.000000 6.708300e-01
402.500000 6.721300e-01
403.000000 6.736900e-01
403.500000 6.750700e-01
404.000000 6.764400e-01
404.500000 6.774900e-01
405.000000 6.789100e-01
405.500000 6.802500e-01
406.000000 6.813900e-01
406.500000 6.823000e-01
407.000000 6.834100e-01
407.500000 6.841700e-01
408.000000 6.852200e-01
408.500000 6.859700e-01
409.000000 6.867400e-01
409.500000 6.874500e-01
410.000000 6.878800e-01
410.500000 6.885300e-01
411.000000 6.887500e-01
411.500000 6.888900e-01
412.000000 6.891200e-01
412.500000 6.895600e-01
413.000000 6.897200e-01
413.500000 6.899100e-01
415.000000 6.900500e-01
415.500000 6.902100e-01
416.000000 6.903100e-01
417.000000 6.906600e-01
417.500000 6.909000e-01
418.000000 6.907900e-01
418.500000 6.906800e-01
419.000000 6.908600e-01
420.000000 6.905100e-01
420.500000 6.902300e-01
421.000000 6.900300e-01
421.500000 6.894900e-01
422.000000 6.888400e-01
422.500000 6.878400e-01
423.000000 6.869200e-01
423.500000 6.856000e-01
424.000000 6.842800e-01
424.500000 6.827900e-01
425.000000 6.814000e-01
425.500000 6.800400e-01
426.000000 6.787300e-01
426.500000 6.774000e-01
427.000000 6.762900e-01
427.500000 6.755000e-01
428.000000 6.739900e-01
428.500000 6.727300e-01
429.000000 6.712900e-01
429.500000 6.701900e-01
430.000000 6.687200e-01
430.500000 6.672700e-01
431.000000 6.655400e-01
431.500000 6.638000e-01
432.000000 6.621500e-01
432.500000 6.600800e-01
433.000000 6.583700e-01
433.500000 6.563500e-01
434.000000 6.543500e-01
434.500000 6.523200e-01
435.000000 6.504500e-01
435.500000 6.486900e-01
436.000000 6.466900e-01
436.500000 6.448400e-01
437.000000 6.431100e-01
437.500000 6.412300e-01
438.000000 6.391200e-01
438.500000 6.374200e-01
439.000000 6.358900e-01
439.500000 6.338600e-01
440.000000 6.321100e-01
440.500000 6.302600e-01
441.000000 6.281200e-01
441.500000 6.260600e-01
442.000000 6.239600e-01
442.500000 6.215200e-01
443.000000 6.193800e-01
443.500000 6.169200e-01
444.000000 6.141000e-01
444.500000 6.113900e-01
445.000000 6.086000e-01
445.500000 6.052500e-01
446.000000 6.022100e-01
446.500000 5.987900e-01
447.000000 5.951000e-01
447.500000 5.917000e-01
448.000000 5.881300e-01
448.500000 5.845100e-01
449.000000 5.809200e-01
449.500000 5.771200e-01
450.000000 5.736500e-01
450.500000 5.699900e-01
451.000000 5.664900e-01
451.500000 5.629700e-01
452.000000 5.597500e-01
452.500000 5.562700e-01
453.000000 5.529900e-01
453.500000 5.494300e-01
454.000000 5.458200e-01
454.500000 5.423500e-01
455.000000 5.387200e-01
455.500000 5.350100e-01
456.000000 5.312100e-01
456.500000 5.269600e-01
457.000000 5.228100e-01
457.500000 5.185400e-01
458.000000 5.140400e-01
458.500000 5.094200e-01
459.000000 5.049300e-01
459.500000 4.999300e-01
460.000000 4.952100e-01
460.500000 4.903900e-01
461.000000 4.855700e-01
461.500000 4.804400e-01
462.000000 4.749900e-01
462.500000 4.690700e-01
463.000000 4.632000e-01
463.500000 4.567700e-01
464.000000 4.501800e-01
464.500000 4.438900e-01
465.000000 4.370000e-01
465.500000 4.297600e-01
466.000000 4.224800e-01
466.500000 4.145900e-01
467.000000 4.067600e-01
467.500000 3.986600e-01
468.000000 3.902700e-01
468.500000 3.821700e-01
469.000000 3.737400e-01
469.500000 3.652600e-01
470.000000 3.568400e-01
470.500000 3.483200e-01
471.000000 3.399000e-01
471.500000 3.315100e-01
472.000000 3.231000e-01
472.500000 3.147300e-01
473.000000 3.062700e-01
473.500000 2.981800e-01
474.000000 2.902200e-01
474.500000 2.821300e-01
475.000000 2.742800e-01
475.500000 2.663700e-01
476.000000 2.585500e-01
476.500000 2.507500e-01
477.000000 2.429900e-01
477.500000 2.353800e-01
478.000000 2.278700e-01
478.500000 2.205200e-01
479.000000 2.129600e-01
479.500000 2.054800e-01
480.000000 1.982800e-01
480.500000 1.910900e-01
481.000000 1.841800e-01
481.500000 1.774300e-01
482.000000 1.712200e-01
482.500000 1.650400e-01
483.000000 1.588100e-01
483.500000 1.525500e-01
484.000000 1.464300e-01
484.500000 1.403500e-01
485.000000 1.344500e-01
485.500000 1.286100e-01
486.000000 1.230000e-01
486.500000 1.176300e-01
487.000000 1.125800e-01
487.500000 1.076200e-01
488.000000 1.027600e-01
488.500000 9.809000e-02
489.000000 9.359000e-02
489.500000 8.930000e-02
490.000000 8.528000e-02
490.500000 8.144000e-02
491.000000 7.782000e-02
491.500000 7.435000e-02
492.000000 7.101000e-02
492.500000 6.788000e-02
493.000000 6.487000e-02
493.500000 6.208000e-02
494.000000 5.945000e-02
494.500000 5.686000e-02
495.000000 5.443000e-02
495.500000 5.219000e-02
496.000000 5.003000e-02
496.500000 4.802000e-02
497.000000 4.610000e-02
497.500000 4.424000e-02
498.000000 4.246000e-02
498.500000 4.070000e-02
499.000000 3.899000e-02
499.500000 3.735000e-02
500.000000 3.568000e-02
500.500000 3.407000e-02
501.000000 3.242000e-02
501.500000 3.080000e-02
502.000000 2.916000e-02
502.500000 2.757000e-02
503.000000 2.601000e-02
503.500000 2.455000e-02
504.000000 2.318000e-02
504.500000 2.179000e-02
505.000000 2.040000e-02
505.500000 1.905000e-02
506.000000 1.778000e-02
506.500000 1.656000e-02
507.000000 1.541000e-02
507.500000 1.430000e-02
508.000000 1.329000e-02
508.500000 1.237000e-02
509.000000 1.152000e-02
509.500000 1.069000e-02
510.000000 9.970000e-03
510.500000 9.280000e-03
511.000000 8.660000e-03
511.500000 8.070000e-03
512.000000 7.500000e-03
512.500000 7.000000e-03
513.000000 6.530000e-03
513.500000 6.060000e-03
514.000000 5.630000e-03
514.500000 5.230000e-03
515.000000 4.850000e-03
515.500000 4.490000e-03
516.000000 4.150000e-03
516.500000 3.840000e-03
517.000000 3.520000e-03
517.500000 3.240000e-03
518.000000 2.990000e-03
518.500000 2.720000e-03
519.000000 2.500000e-03
519.500000 2.290000e-03
520.000000 2.080000e-03
520.500000 1.910000e-03
521.000000 1.730000e-03
521.500000 1.580000e-03
522.000000 1.440000e-03
522.500000 1.300000e-03
523.000000 1.180000e-03
523.500000 1.060000e-03
524.000000 9.500000e-04
525.000000 7.900000e-04
526.000000 6.600000e-04
527.000000 5.500000e-04
528.000000 4.500000e-04
529.500000 3.500000e-04
532.000000 2.300000e-04
546.000000 1.300000e-04
551.000000 2.300000e-04
554.000000 3.300000e-04
564.500000 4.400000e-04
567.500000 3.300000e-04
570.000000 2.200000e-04
573.500000 1.200000e-04
799.000000 0.000000e+00
1084.000000 1.200000e-04
1200.000000 2.200000e-04
