#  Table ccd.tab  Fri 15:08:38 04-Apr-97
#
#      WAVELENGTH      THROUGHPUT
#       angstroms                
#
            1150.    8.125043E-21
         1151.299    9.032134E-21
         1152.599    9.972720E-21
         1153.901    1.094665E-20
         1155.204    1.195412E-20
         1156.508    1.299535E-20
         1157.814    1.407023E-20
         1159.122    1.517909E-20
         1160.432    1.624063E-20
         1161.742    1.716169E-20
         1163.053    1.810529E-20
         1164.367    1.907229E-20
         1165.682    2.006235E-20
         1166.999    2.107609E-20
         1168.317    2.211247E-20
         1169.636    2.317221E-20
         1170.957    2.436450E-20
         1172.279    2.562271E-20
         1173.604    2.690753E-20
         1174.929    2.821704E-20
         1176.256    2.955217E-20
         1177.584    3.091286E-20
         1178.914    3.229932E-20
         1180.246    3.370396E-20
         1181.578    3.509778E-20
         1182.913    3.651215E-20
         1184.249    3.794728E-20
         1185.586    3.940308E-20
         1186.925    4.087962E-20
         1188.266    4.237712E-20
         1189.608    4.389562E-20
         1190.951    4.549806E-20
         1192.296    4.714096E-20
         1193.642    4.879714E-20
         1194.991    5.046723E-20
         1196.341    5.214991E-20
         1197.691    5.384491E-20
         1199.044    5.555426E-20
         1200.398    5.735054E-20
         1201.754    5.933859E-20
         1203.111    6.133955E-20
          1204.47    6.335455E-20
          1205.83    6.538341E-20
         1207.191    6.742526E-20
         1208.555    6.948327E-20
          1209.92    7.155437E-20
         1211.287    7.405828E-20
         1212.655    7.660606E-20
         1214.024    7.917214E-20
         1215.395    8.175638E-20
         1216.768    8.435926E-20
         1218.142    8.698037E-20
         1219.518    8.961978E-20
         1220.895    9.253286E-20
         1222.274    9.560449E-20
         1223.654    9.869372E-20
         1225.036    1.018044E-19
         1226.419    1.049358E-19
         1227.804    1.080875E-19
         1229.192    1.112613E-19
          1230.58    1.146853E-19
          1231.97    1.184516E-19
          1233.36    1.222366E-19
         1234.753    1.260431E-19
         1236.148    1.298697E-19
         1237.544    1.337186E-19
         1238.942    1.375857E-19
         1240.341    1.414485E-19
         1241.742    1.452503E-19
         1243.144    1.490649E-19
         1244.548    1.528982E-19
         1245.954    1.567443E-19
         1247.361    1.606052E-19
          1248.77    1.644811E-19
          1250.18    1.684426E-19
         1251.592    1.729018E-19
         1253.005    1.773728E-19
          1254.42    1.818556E-19
         1255.837    1.863503E-19
         1257.255    1.908572E-19
         1258.676    1.953780E-19
         1260.096    1.998947E-19
          1261.52    2.042611E-19
         1262.944    2.086346E-19
          1264.37    2.130151E-19
         1265.799    2.174049E-19
         1267.229    2.218000E-19
          1268.66    2.262020E-19
         1270.092    2.306454E-19
         1271.526    2.356308E-19
         1272.963    2.406229E-19
           1274.4    2.456170E-19
          1275.84    2.506155E-19
         1277.281    2.556177E-19
         1278.723    2.606244E-19
         1280.167    2.656385E-19
         1281.613    2.706804E-19
          1283.06    2.757242E-19
         1284.509    2.807699E-19
          1285.96    2.858167E-19
         1287.412    2.908654E-19
         1288.866    2.959160E-19
         1290.322    3.011128E-19
         1291.779    3.068207E-19
         1293.238    3.125292E-19
         1294.699    3.182410E-19
          1296.16    3.239471E-19
         1297.624    3.296561E-19
          1299.09    3.353655E-19
         1300.557    3.411028E-19
         1302.026    3.468877E-19
         1303.497    3.526694E-19
         1304.969    3.584505E-19
         1306.443    3.642315E-19
         1307.917    3.700064E-19
         1309.395    3.757921E-19
         1310.874    3.820051E-19
         1312.354    3.885177E-19
         1313.836    3.950310E-19
          1315.32    4.015439E-19
         1316.805    4.080563E-19
         1318.293    4.145693E-19
         1319.781    4.210818E-19
         1321.272    4.276302E-19
         1322.764    4.341852E-19
         1324.258    4.407402E-19
         1325.753    4.472963E-19
         1327.251    4.538522E-19
          1328.75    4.604085E-19
          1330.25    4.670884E-19
         1331.752    4.743854E-19
         1333.256    4.816831E-19
         1334.761    4.889772E-19
          1336.27    4.962797E-19
         1337.778    5.035757E-19
         1339.289    5.108787E-19
         1340.802    5.181314E-19
         1342.316    5.253415E-19
         1343.832    5.325525E-19
         1345.349    5.397602E-19
         1346.869    5.469757E-19
          1348.39    5.541876E-19
         1349.913    5.614005E-19
         1351.438    5.692924E-19
         1352.964    5.772259E-19
         1354.492    5.851597E-19
         1356.021    5.930939E-19
         1357.553    6.010282E-19
         1359.086    6.089630E-19
         1360.621    6.169679E-19
         1362.157    6.250751E-19
         1363.696    6.331825E-19
         1365.236    6.412900E-19
         1366.778    6.493984E-19
         1368.321    6.575067E-19
         1369.866    6.656152E-19
         1371.413    6.744119E-19
         1372.963    6.832786E-19
         1374.513    6.921368E-19
         1376.065    7.009991E-19
         1377.619    7.098618E-19
         1379.175    7.187244E-19
         1380.733    7.276103E-19
         1382.293    7.365129E-19
         1383.854    7.454149E-19
         1385.416    7.543123E-19
          1386.98    7.632145E-19
         1388.547    7.721203E-19
         1390.116    7.810771E-19
         1391.685    7.907342E-19
         1393.257    8.003915E-19
         1394.831    8.100470E-19
         1396.406    8.197028E-19
         1397.983    8.293573E-19
         1399.562    8.390106E-19
         1401.142    8.435307E-19
         1402.725    8.460792E-19
         1404.309    8.486267E-19
         1405.895    8.511733E-19
         1407.482    8.537193E-19
         1409.072    8.562643E-19
         1410.663    8.588265E-19
         1412.257    8.614139E-19
         1413.852    8.639988E-19
         1415.448    8.665814E-19
         1417.047    8.691642E-19
         1418.647    8.717456E-19
          1420.25    8.741154E-19
         1421.854    8.753349E-19
         1423.459    8.765532E-19
         1425.067    8.777704E-19
         1426.676    8.789859E-19
         1428.288    8.802011E-19
         1429.901    8.814149E-19
         1431.516    8.826085E-19
         1433.132    8.837995E-19
         1434.751    8.849891E-19
         1436.371    8.861771E-19
         1437.993    8.873638E-19
         1439.617    8.885488E-19
         1441.243    8.896650E-19
         1442.871    8.907586E-19
         1444.501    8.918510E-19
         1446.131    8.929404E-19
         1447.765    8.940289E-19
           1449.4    8.951154E-19
         1451.036    8.961756E-19
         1452.676    8.972202E-19
         1454.317    8.982620E-19
         1455.959    8.993018E-19
         1457.602    9.003388E-19
         1459.249    9.013743E-19
         1460.897    9.024451E-19
         1462.547    9.035437E-19
         1464.199    9.046396E-19
         1465.852    9.057328E-19
         1467.508    9.068233E-19
         1469.165    9.079113E-19
         1470.824    9.089692E-19
         1472.485    9.099968E-19
         1474.148    9.110210E-19
         1475.813    9.120420E-19
          1477.48    9.130598E-19
         1479.148    9.140743E-19
         1480.819    9.149355E-19
         1482.491    9.156372E-19
         1484.166    9.163355E-19
         1485.842    9.170301E-19
          1487.52    9.177214E-19
           1489.2    9.184084E-19
         1490.881    9.190476E-19
         1492.565    9.196421E-19
         1494.251    9.202324E-19
         1495.939    9.208189E-19
         1497.628    9.214008E-19
          1499.32    9.219783E-19
         1501.012    9.229631E-19
         1502.707    9.242193E-19
         1504.404    9.254694E-19
         1506.104    9.267137E-19
         1507.805    9.279511E-19
         1509.508    9.291821E-19
         1511.213    9.303756E-19
         1512.918    9.315490E-19
         1514.628    9.327163E-19
         1516.339    9.338760E-19
         1518.051    9.350284E-19
         1519.765    9.361738E-19
         1521.482    9.360141E-19
           1523.2    9.356442E-19
          1524.92    9.352696E-19
         1526.642    9.348907E-19
         1528.366    9.345074E-19
         1530.092    9.341177E-19
         1531.821    9.336944E-19
          1533.55    9.332667E-19
         1535.282    9.328340E-19
         1537.016    9.323966E-19
         1538.752    9.319545E-19
          1540.49    9.315518E-19
          1542.23    9.312577E-19
         1543.972    9.309583E-19
         1545.715    9.306539E-19
          1547.46    9.303438E-19
         1549.209    9.300283E-19
         1550.958    9.800325E-17
          1552.71    2.749255E-16
         1554.464    4.514035E-16
         1556.219    6.274353E-16
         1557.977    8.030306E-16
         1559.736    9.781634E-16
         1561.497    1.650918E-13
         1563.261    3.577010E-13
         1565.026    5.498186E-13
         1566.794    7.414688E-13
         1568.563    9.326358E-13
         1570.335    4.084201E-11
         1572.108    2.510418E-10
         1573.884    4.607434E-10
         1575.662    6.700592E-10
         1577.441    8.787853E-10
         1579.222     1.086892E-9
         1581.005     1.303046E-7
         1582.791     3.589993E-7
         1584.579     5.873295E-7
         1586.369     8.150273E-7
          1588.16     1.042246E-6
         1589.954     1.268953E-6
         1591.749     2.442326E-4
         1593.547     4.933606E-4
         1595.347     7.418967E-4
         1597.149     9.899569E-4
         1598.952     0.001237522
         1600.758     0.001390015
         1602.566     0.001411534
         1604.376     0.001433012
         1606.188     0.001454451
         1608.001     0.001475851
         1609.817      0.00149721
         1611.636     0.001520821
         1613.456     0.001544631
         1615.278      0.00156842
         1617.102     0.001592175
         1618.928       0.0016159
         1620.757     0.001641082
         1622.588     0.001668317
          1624.42     0.001695534
         1626.254     0.001722715
          1628.09     0.001749887
          1629.93     0.001777052
         1631.771     0.001807369
         1633.614     0.001837809
         1635.458     0.001868243
         1637.305     0.001898675
         1639.154     0.001929099
         1641.005     0.001961977
         1642.859      0.00199698
         1644.714     0.002031985
         1646.572     0.002067009
          1648.43     0.002102035
         1650.293     0.002135898
         1652.156     0.002163249
         1654.022     0.002190636
          1655.89     0.002218059
          1657.76     0.002245514
         1659.633     0.002273005
         1661.507      0.00230268
         1663.383     0.002332938
         1665.261     0.002363237
         1667.142     0.002393626
         1669.025     0.002424057
         1670.911     0.002455909
         1672.796     0.002489227
         1674.685     0.002522662
         1676.578     0.002556198
         1678.471     0.002589801
         1680.367     0.002624061
         1682.265     0.002660712
         1684.165     0.002697475
         1686.067     0.002734346
          1687.97     0.002771309
         1689.877      0.00280842
         1691.786     0.002848454
         1693.696     0.002888816
         1695.609     0.002929319
         1697.524     0.002969958
         1699.441     0.003010733
          1701.36     0.003048057
         1703.282     0.003084036
         1705.205     0.003120148
         1707.131     0.003156392
         1709.059     0.003192768
         1710.989     0.003230446
         1712.922     0.003269384
         1714.856     0.003308474
         1716.793     0.003347718
         1718.731     0.003387114
         1720.673     0.003427484
         1722.616     0.003469485
         1724.561     0.003511679
         1726.509     0.003554047
         1728.459     0.003596606
         1730.411     0.003639793
         1732.365      0.00368502
         1734.321      0.00373044
          1736.28     0.003776052
         1738.241     0.003821856
         1740.204       0.0038681
         1742.169     0.003916675
         1744.137      0.00396546
         1746.107      0.00401448
         1748.078     0.004063663
         1750.052     0.004112863
         1752.029     0.004154254
         1754.007      0.00419582
         1755.988     0.004237561
         1757.973     0.004279522
         1759.957     0.004321577
         1761.944     0.004365323
         1763.934     0.004409291
         1765.926     0.004453445
         1767.922      0.00449783
         1769.919     0.004542361
         1771.918     0.004588597
         1773.917     0.004635049
          1775.92     0.004681744
         1777.928     0.004728685
         1779.936     0.004775783
         1781.945     0.004824688
         1783.958     0.004873908
         1785.973     0.004923313
          1787.99     0.004972932
         1790.008      0.00502275
         1792.031     0.005074597
         1794.055     0.005126647
         1796.081     0.005178922
         1798.108     0.005231397
         1800.139     0.005283682
         1802.173     0.005330162
         1804.208     0.005376814
         1806.246     0.005423661
         1808.286     0.005470708
         1810.328     0.005518164
         1812.372     0.005566938
         1814.419     0.005615917
         1816.467     0.005665079
         1818.519     0.005714497
         1820.573     0.005764487
         1822.629     0.005815689
         1824.688      0.00586711
         1826.747     0.005918724
         1828.811     0.005970611
         1830.877     0.006023299
         1832.944     0.006077042
         1835.014     0.006131018
         1837.087     0.006185223
         1839.161     0.006239659
         1841.238     0.006295223
         1843.318     0.006351634
           1845.4      0.00640829
         1847.484     0.006465184
          1849.57     0.006522323
         1851.659     0.006576608
          1853.75     0.006630312
         1855.843     0.006684243
         1857.939     0.006738402
         1860.038     0.006792811
         1862.138     0.006848709
         1864.242      0.00690487
         1866.347     0.006961214
         1868.454      0.00701782
         1870.564     0.007075022
         1872.677     0.007133445
         1874.793     0.007192139
          1876.91     0.007251056
          1879.03     0.007310219
         1881.151     0.007370355
         1883.275     0.007431405
         1885.403     0.007492746
         1887.532     0.007554315
         1889.664     0.007616145
         1891.798     0.007679442
         1893.935     0.007743235
         1896.073     0.007807299
         1898.215     0.007871631
         1900.359     0.007935417
         1902.505     0.007995374
         1904.653     0.008055578
         1906.804     0.008116031
         1908.958     0.008176734
         1911.114     0.008238292
         1913.272     0.008300675
         1915.432     0.008363316
         1917.597     0.008426247
         1919.762     0.008489406
         1921.929     0.008553888
           1924.1     0.008618804
         1926.273     0.008683988
         1928.449     0.008749473
         1930.627     0.008815555
         1932.807      0.00888281
          1934.99     0.008950343
         1937.174     0.009018122
         1939.363     0.009086249
         1941.553     0.009155548
         1943.746     0.009225516
         1945.941     0.009295775
         1948.139      0.00936632
         1950.339     0.009436481
         1952.542     0.009503196
         1954.747     0.009570178
         1956.954      0.00963743
         1959.164     0.009704954
         1961.378     0.009773473
         1963.592     0.009842621
         1965.809     0.009912081
          1968.03     0.009981822
         1970.252      0.01005197
         1972.478      0.01012344
         1974.706      0.01019517
         1976.936      0.01026719
         1979.168      0.01033946
         1981.403      0.01041277
         1983.641      0.01048686
         1985.882      0.01056121
         1988.124      0.01063585
          1990.37      0.01071099
         1992.617      0.01078743
         1994.868      0.01086419
         1997.121      0.01094125
         1999.376      0.01101861
         2001.634      0.01110604
         2003.895      0.01119758
         2006.158      0.01128949
         2008.423      0.01138178
         2010.692      0.01147502
         2012.962      0.01156995
         2015.236      0.01166528
         2017.513      0.01176104
          2019.79      0.01185711
         2022.071      0.01195535
         2024.354      0.01205417
         2026.641       0.0121534
         2028.931      0.01225309
         2031.221      0.01235412
         2033.516      0.01245658
         2035.812      0.01255941
          2038.11      0.01266261
         2040.413       0.0127667
         2042.716      0.01287276
         2045.024      0.01297935
         2047.334      0.01308633
         2049.646      0.01319376
         2051.961      0.01328561
         2054.277      0.01337489
         2056.598       0.0134646
         2058.921      0.01355461
         2061.246      0.01364555
         2063.574      0.01373733
         2065.904      0.01382946
         2068.238      0.01392195
         2070.573      0.01401505
         2072.912      0.01410929
         2075.253       0.0142039
         2077.596      0.01429885
         2079.944      0.01439422
         2082.292       0.0144909
         2084.643        0.014588
         2086.997      0.01468548
         2089.354      0.01478332
         2091.715      0.01488235
         2094.076      0.01498195
         2096.442        0.015082
         2098.809      0.01518234
         2101.179      0.01527941
         2103.553      0.01537314
         2105.927      0.01546712
         2108.307      0.01556153
         2110.688      0.01565645
         2113.072       0.0157522
         2115.458      0.01584831
         2117.846       0.0159447
         2120.239       0.0160416
         2122.633      0.01613943
         2125.029      0.01623755
          2127.43      0.01633612
         2129.832      0.01643493
         2132.238       0.0165348
         2134.646      0.01663501
         2137.056      0.01673553
         2139.472      0.01683654
         2141.885      0.01693818
         2144.306      0.01704047
         2146.727      0.01714305
          2149.15      0.01724594
          2151.58      0.01734656
          2154.01      0.01744594
         2156.442      0.01754566
         2158.878       0.0176457
         2161.313       0.0177462
         2163.757       0.0178474
         2166.199      0.01794878
         2168.647      0.01805061
         2171.096      0.01815287
         2173.548      0.01825566
         2176.002      0.01835879
         2178.458       0.0184622
          2180.92      0.01856615
         2183.383      0.01867059
         2185.849      0.01877534
         2188.317      0.01888043
         2190.789      0.01898593
         2193.263      0.01909197
          2195.74      0.01919832
         2198.219      0.01930501
         2200.702      0.01941469
         2203.187      0.01953147
         2205.676      0.01964862
         2208.167      0.01976613
          2210.66      0.01988412
         2213.157      0.02000284
         2215.656      0.02012191
         2218.158      0.02024134
         2220.664      0.02036124
         2223.171      0.02048178
         2225.682      0.02060268
         2228.196      0.02072392
         2230.712      0.02084563
         2233.231      0.02096795
         2235.755      0.02109068
         2238.278      0.02121362
         2240.806      0.02133707
         2243.337       0.0214611
          2245.87      0.02158546
         2248.408      0.02171022
         2250.948      0.02183721
         2253.488      0.02196755
         2256.033      0.02209835
         2258.581      0.02222949
         2261.133      0.02236127
         2263.687      0.02249367
         2266.241      0.02262621
         2268.803      0.02275934
         2271.363      0.02289287
         2273.928      0.02302714
         2276.499      0.02316186
         2279.067      0.02329664
         2281.643       0.0234325
          2284.22      0.02356882
           2286.8      0.02370545
         2289.382      0.02384238
         2291.965      0.02398019
         2294.556      0.02411877
         2297.147      0.02425753
         2299.742      0.02439659
         2302.339      0.02449372
         2304.939      0.02458638
         2307.542      0.02467922
         2310.148      0.02477223
         2312.757      0.02486498
         2315.369      0.02495792
         2317.984      0.02505105
         2320.602      0.02514425
         2323.222      0.02523736
         2325.846      0.02533063
         2328.473      0.02542409
         2331.102      0.02551761
         2333.735      0.02561115
         2336.371      0.02570485
         2339.009      0.02579872
         2341.651      0.02589267
         2344.295      0.02598673
         2346.943      0.02608094
         2349.593      0.02617531
         2352.247      0.02626744
         2354.903      0.02635927
         2357.563      0.02645126
         2360.225      0.02654338
         2362.891      0.02663561
         2365.559      0.02672798
          2368.23      0.02682048
         2370.905      0.02691314
         2373.583      0.02700596
         2376.263      0.02709891
         2378.947        0.027192
         2381.634      0.02728532
         2384.323      0.02737883
         2387.019      0.02747256
         2389.712      0.02756624
          2392.41      0.02766038
         2395.112      0.02775467
         2397.817      0.02784908
         2400.528       0.0279326
         2403.236       0.0279701
         2405.953      0.02800772
         2408.667      0.02804532
         2411.387      0.02808274
         2414.113         0.02812
         2416.837      0.02815723
         2419.569      0.02819459
         2422.302      0.02823162
         2425.036      0.02826861
         2427.776      0.02830569
         2430.515       0.0283427
         2433.261      0.02837954
          2436.01      0.02841642
          2438.76      0.02845332
         2441.516      0.02849019
         2444.273        0.028527
         2447.032      0.02856383
         2449.797      0.02860075
         2452.564      0.02864002
         2455.333      0.02867953
         2458.106      0.02871908
         2460.881      0.02875867
         2463.662      0.02879834
         2466.444      0.02883804
         2469.229      0.02887779
         2472.018      0.02891766
          2474.81       0.0289576
         2477.605      0.02899759
         2480.403      0.02903766
         2483.204      0.02907796
         2486.008       0.0291183
         2488.816      0.02915868
         2491.626      0.02919929
          2494.44      0.02924008
         2497.258      0.02928092
         2500.078       0.0293204
         2502.901      0.02931066
         2505.728      0.02930092
         2508.558      0.02929115
         2511.392      0.02928149
         2514.227      0.02927195
         2517.068      0.02926238
         2519.909      0.02925282
         2522.755      0.02924348
         2525.605      0.02923414
         2528.456      0.02922479
         2531.313      0.02921553
          2534.17       0.0292064
         2537.033      0.02919723
         2539.899      0.02918807
         2542.766       0.0291791
          2545.64      0.02917011
         2548.512      0.02916113
         2551.392       0.0291494
         2554.273      0.02913476
         2557.156      0.02912011
         2560.047      0.02910542
         2562.937      0.02909093
         2565.831      0.02907642
          2568.73      0.02906188
         2571.628      0.02904746
         2574.536      0.02903306
         2577.442      0.02901868
         2580.353      0.02900429
         2583.268      0.02899008
         2586.184      0.02897585
         2589.106       0.0289616
          2592.03      0.02894748
         2594.956       0.0289334
         2597.888      0.02891929
          2600.82      0.02891378
         2603.759      0.02893048
         2606.699      0.02894718
         2609.643       0.0289639
         2612.591       0.0289808
          2615.54      0.02899774
         2618.495      0.02901471
         2621.452      0.02903177
         2624.413      0.02904895
         2627.376      0.02906615
         2630.344      0.02908339
         2633.314      0.02910081
         2636.288      0.02911824
         2639.265      0.02913569
         2642.246      0.02915329
          2645.23      0.02917095
         2648.217      0.02918863
         2651.208      0.02920484
         2654.202      0.02921885
         2657.199      0.02923289
           2660.2      0.02924694
         2663.205      0.02926114
         2666.212      0.02927535
         2669.223      0.02928956
         2672.238       0.0293039
         2675.256      0.02931828
         2678.277      0.02933268
         2681.302      0.02934717
          2684.33      0.02936175
         2687.361      0.02937635
         2690.396      0.02939099
         2693.436      0.02940574
         2696.476      0.02942051
         2699.522       0.0294353
          2702.57      0.02947586
         2705.622      0.02952126
         2708.679      0.02956676
         2711.737      0.02961242
         2714.801      0.02965831
         2717.867      0.02970424
         2720.935      0.02975029
         2724.011      0.02979664
         2727.084      0.02984297
         2730.165      0.02988943
         2733.249      0.02993621
         2736.335      0.02998305
         2739.427      0.03002999
         2742.518      0.03007714
         2745.616      0.03012448
         2748.719      0.03017189
         2751.822       0.0302184
         2754.931      0.03026438
         2758.041      0.03031037
         2761.155      0.03035656
         2764.275      0.03040298
         2767.397      0.03044946
         2770.522      0.03049603
         2773.649      0.03054286
         2776.783      0.03058979
         2779.919      0.03063677
         2783.059      0.03068402
         2786.202      0.03073134
         2789.348      0.03077873
         2792.499      0.03082638
         2795.652      0.03087415
         2798.809      0.03092199
          2801.97      0.03101043
         2805.135      0.03112352
         2808.302      0.03123677
         2811.474      0.03135077
         2814.649       0.0314656
         2817.828       0.0315806
          2821.01      0.03169614
         2824.196      0.03181269
         2827.385      0.03192941
         2830.579      0.03204653
         2833.775      0.03216488
         2836.976      0.03228341
         2840.179      0.03240217
         2843.387       0.0325223
         2846.598      0.03264261
         2849.813      0.03276309
         2853.031      0.03288459
         2856.255      0.03300636
         2859.479      0.03312819
         2862.708      0.03325133
         2865.941      0.03337486
         2869.178      0.03349857
          2872.42      0.03362346
         2875.662      0.03374874
         2878.911      0.03387431
         2882.163      0.03400087
         2885.416      0.03412798
         2888.678      0.03425547
         2891.938      0.03438376
         2895.203      0.03451278
         2898.474      0.03464211
         2901.746      0.03480893
         2905.026      0.03500902
         2908.305       0.0352091
          2911.59      0.03541118
         2914.879      0.03561538
         2918.168      0.03581957
         2921.467      0.03602594
         2924.765      0.03623418
         2928.068      0.03644281
         2931.376      0.03665326
         2934.685      0.03686581
         2938.001      0.03707884
         2941.317      0.03729337
         2944.641      0.03751052
         2947.966      0.03772787
         2951.294      0.03794151
         2954.628      0.03814949
         2957.965      0.03835766
         2961.306      0.03856737
          2964.65      0.03877932
         2967.998      0.03899157
          2971.35       0.0392054
         2974.706      0.03942144
         2978.065      0.03963777
         2981.428      0.03985582
         2984.795      0.04007608
         2988.166      0.04029663
         2991.541      0.04051905
         2994.919       0.0407436
         2998.302      0.04096849
         3001.688      0.04116879
         3005.078      0.04134433
         3008.471       0.0415201
         3011.869      0.04169721
          3015.27      0.04187547
         3018.676      0.04205398
         3022.085      0.04223394
         3025.498       0.0424149
         3028.914      0.04259612
         3032.335      0.04277897
          3035.76      0.04296268
          3039.19      0.04314676
          3042.62      0.04333248
         3046.056      0.04351902
         3049.497      0.04370583
          3052.94      0.04388671
          3056.39      0.04406687
          3059.84      0.04424711
         3063.297      0.04442965
         3066.755      0.04461237
         3070.218      0.04479554
         3073.689        0.044981
         3077.157      0.04516636
         3080.634       0.0453526
         3084.113      0.04554062
         3087.596      0.04572892
         3091.084      0.04591818
         3094.572      0.04610881
          3098.07      0.04630005
         3101.567      0.04646666
          3105.07      0.04660318
         3108.578      0.04673994
         3112.087      0.04687736
         3115.604      0.04701551
         3119.122      0.04715377
         3122.645      0.04729299
         3126.171      0.04743264
           3129.7      0.04757242
         3133.236      0.04771347
         3136.775      0.04785472
         3140.317      0.04799627
         3143.864        0.048139
         3147.414      0.04828192
         3150.969      0.04842256
         3154.527      0.04855673
          3158.09      0.04869109
         3161.656      0.04882604
         3165.227      0.04896164
         3168.802      0.04909742
          3172.38      0.04923399
         3175.963      0.04937104
          3179.55      0.04950829
          3183.14      0.04964656
         3186.735      0.04978513
         3190.334      0.04992399
         3193.937      0.05006386
         3197.544      0.05020393
         3201.155      0.05035405
          3204.77      0.05052538
          3208.39      0.05069695
         3212.013      0.05086958
          3215.64      0.05104312
         3219.272      0.05121689
         3222.909      0.05139223
         3226.547      0.05156795
         3230.191      0.05174407
         3233.839      0.05192186
         3237.491       0.0520999
         3241.149      0.05227877
         3244.808       0.0524588
         3248.474      0.05263926
         3252.141       0.0528207
         3255.814      0.05300315
         3259.494      0.05318602
         3263.172      0.05337017
         3266.857      0.05355497
         3270.548      0.05374036
          3274.24      0.05392723
         3277.941      0.05411462
         3281.639      0.05430266
         3285.347      0.05449217
         3289.058      0.05468183
          3292.77      0.05487293
         3296.493      0.05506501
         3300.214      0.05524876
         3303.941      0.05529635
         3307.674      0.05534404
         3311.407       0.0553918
         3315.149      0.05543979
         3318.891       0.0554878
         3322.639      0.05553598
         3326.393      0.05558427
         3330.148      0.05563259
         3333.911      0.05568114
         3337.676      0.05572972
         3341.445      0.05577841
         3345.219      0.05582725
         3348.997      0.05587615
         3352.779      0.05592521
         3356.565      0.05597436
         3360.356      0.05602359
         3364.151      0.05607306
          3367.95      0.05612259
         3371.754       0.0561723
         3375.562      0.05622219
         3379.374      0.05627215
          3383.19      0.05632239
         3387.011      0.05637274
         3390.836      0.05642319
         3394.666      0.05647384
         3398.499      0.05652455
         3402.337      0.05657779
          3406.18      0.05663268
         3410.027      0.05668765
         3413.878      0.05674289
         3417.733      0.05679821
         3421.593      0.05685375
         3425.457      0.05690954
         3429.325       0.0569654
         3433.198       0.0570216
         3437.077      0.05707798
         3440.957      0.05713443
         3444.843      0.05719121
         3448.735      0.05724808
         3452.628      0.05730514
          3456.53       0.0573624
         3460.431      0.05741969
         3464.339      0.05747729
         3468.253      0.05753501
         3472.168      0.05759291
         3476.094      0.05765113
         3480.017      0.05770936
         3483.945      0.05776795
         3487.884      0.05782671
         3491.819      0.05788558
         3495.764       0.0579448
         3499.712      0.05800407
         3503.665       0.0580657
         3507.623      0.05812764
         3511.581      0.05818967
          3515.55      0.05825207
         3519.521      0.05831451
         3523.493       0.0583773
         3527.473      0.05844026
         3531.456      0.05850342
         3535.447      0.05856689
         3539.439      0.05863043
         3543.437      0.05869431
         3547.438      0.05875833
         3551.442      0.05882251
         3555.455      0.05888702
          3559.47      0.05895159
          3563.49       0.0590165
         3567.515      0.05908152
         3571.544      0.05914676
         3575.577      0.05921225
         3579.615      0.05927784
         3583.658       0.0593438
         3587.705      0.05940991
         3591.757      0.05947622
         3595.813      0.05954279
         3599.874      0.05960945
         3603.939      0.05991335
          3608.01       0.0602253
         3612.084      0.06053967
         3616.163      0.06085637
         3620.247       0.0611738
         3624.336      0.06149526
         3628.429      0.06181723
         3632.527      0.06214208
         3636.629       0.0624689
         3640.736      0.06279694
         3644.847      0.06312872
         3648.964      0.06346103
         3653.085      0.06379681
          3657.21      0.06413411
         3661.343      0.06447344
         3665.475      0.06481571
         3669.615       0.0651587
         3673.759      0.06550594
         3677.908      0.06585408
         3682.064        0.066205
         3686.222       0.0665584
         3690.385      0.06691273
         3694.551      0.06727121
         3698.723       0.0676304
           3702.9      0.06817041
         3707.084      0.06879105
         3711.271      0.06941626
         3715.462      0.07005147
         3719.658      0.07068766
         3723.857      0.07133672
         3728.066      0.07198879
         3732.276      0.07264865
         3736.489      0.07331549
         3740.709      0.07398605
         3744.932      0.07466874
         3749.165      0.07535352
         3753.399      0.07605017
         3757.638      0.07675071
         3761.882      0.07745882
         3766.128      0.07817579
         3770.383      0.07889594
         3774.641      0.07963041
         3778.904        0.080366
         3783.172      0.08111414
         3787.442      0.08186699
         3791.722      0.08262806
         3796.004      0.08339919
         3800.291      0.08415858
         3804.583      0.08474033
         3808.879      0.08532295
         3813.178      0.08591255
         3817.487       0.0865059
         3821.798      0.08710352
         3826.115      0.08770724
         3830.435      0.08831272
         3834.761      0.08892708
         3839.092      0.08954238
         3843.427      0.09016579
         3847.768      0.09079213
         3852.114      0.09142389
         3856.464      0.09206133
         3860.819      0.09270152
         3865.179      0.09335031
         3869.544      0.09400014
         3873.915      0.09465958
         3878.289        0.095321
         3882.671      0.09598974
         3887.054      0.09666267
         3891.444      0.09734016
         3895.839      0.09802528
         3900.239      0.09868508
         3904.643      0.09888503
         3909.055      0.09908538
         3913.469      0.09928609
         3917.887      0.09948704
         3922.312      0.09968861
         3926.741      0.09989065
         3931.178       0.1000932
         3935.618       0.1002963
         3940.062       0.1004996
          3944.51       0.1007035
         3948.965       0.1009077
         3953.428       0.1011126
         3957.891       0.1013175
         3962.361        0.101523
         3966.836       0.1017289
         3971.313        0.101935
         3975.803       0.1021418
         3980.293       0.1023488
         3984.788       0.1025562
         3989.286       0.1027638
         3993.791        0.102972
         3998.304       0.1031805
         4002.819        0.103568
          4007.34       0.1040635
         4011.863       0.1045613
         4016.394       0.1050626
          4020.93       0.1055655
         4025.473       0.1060727
         4030.019       0.1065805
          4034.57       0.1070934
         4039.127       0.1076071
         4043.686        0.108125
         4048.255        0.108645
         4052.827       0.1091682
         4057.404       0.1096938
         4061.986       0.1102222
         4066.573       0.1107539
         4071.166       0.1112876
         4075.764       0.1118256
         4080.366       0.1123647
         4084.975        0.112909
         4089.588       0.1134541
         4094.207       0.1140044
          4098.83       0.1145559
         4103.459       0.1150712
         4108.093       0.1155746
         4112.733       0.1160811
          4117.38         0.11659
         4122.027       0.1171007
         4126.683       0.1176148
         4131.343       0.1181306
         4136.009       0.1186501
          4140.68       0.1191709
         4145.358       0.1196964
          4150.04       0.1202223
         4154.724        0.120753
         4159.416       0.1212846
         4164.114       0.1218208
         4168.819       0.1223585
         4173.527       0.1228999
         4178.238       0.1234428
         4182.956       0.1239894
          4187.68       0.1245384
         4192.414       0.1250908
         4197.146       0.1256455
         4201.887       0.1260874
         4206.632       0.1263576
          4211.38       0.1266283
         4216.141       0.1269001
         4220.902       0.1271722
         4225.667       0.1274453
         4230.439       0.1277188
         4235.217       0.1279934
            4240.       0.1282684
         4244.791       0.1285445
         4249.584       0.1288208
         4254.381       0.1290982
         4259.186       0.1293761
         4263.996        0.129655
         4268.813       0.1299345
         4273.635       0.1302149
         4278.461       0.1304959
         4283.293       0.1307778
         4288.128       0.1310601
         4292.973       0.1313435
         4297.821       0.1316274
         4302.675       0.1318911
         4307.534       0.1321386
         4312.398       0.1323866
         4317.269       0.1326353
         4322.145       0.1328846
         4327.025       0.1331348
         4331.912       0.1333856
         4336.804       0.1336371
         4341.702       0.1338891
         4346.605        0.134142
         4351.514       0.1343952
         4356.429       0.1346492
         4361.349       0.1349036
         4366.274       0.1351586
         4371.205       0.1354141
         4376.142       0.1356703
         4381.083       0.1359271
         4386.031       0.1361847
         4390.984       0.1364429
         4395.946       0.1367021
         4400.908       0.1369409
         4405.878       0.1370892
         4410.854       0.1372377
         4415.835       0.1373865
         4420.825       0.1375357
         4425.815       0.1376849
         4430.813       0.1378343
         4435.817       0.1379838
         4440.827       0.1381336
         4445.847       0.1382837
         4450.865       0.1384337
         4455.892       0.1385842
         4460.921       0.1387348
         4465.959       0.1388857
         4471.002       0.1390368
         4476.057       0.1391886
         4481.109       0.1393404
          4486.17       0.1394928
         4491.236       0.1396455
         4496.306       0.1397985
         4501.389       0.1399465
         4506.473       0.1400801
          4511.56       0.1402137
         4516.654       0.1403476
         4521.755       0.1404816
         4526.864       0.1406159
         4531.977       0.1407504
         4537.095       0.1408852
         4542.219       0.1410203
         4547.346       0.1411556
         4552.484       0.1412912
         4557.625        0.141427
         4562.772       0.1415631
         4567.925       0.1416993
         4573.084       0.1418358
         4578.249       0.1419724
         4583.419       0.1421093
         4588.595       0.1422466
         4593.777       0.1423843
         4598.965       0.1425223
         4604.159       0.1426844
         4609.358       0.1428528
         4614.564       0.1430215
         4619.775       0.1431905
         4624.993       0.1433597
         4630.216       0.1435292
         4635.445       0.1436993
          4640.68       0.1438696
         4645.921       0.1440404
         4651.168       0.1442116
          4656.42       0.1443834
         4661.679       0.1445555
         4666.944       0.1447281
         4672.214       0.1449011
         4677.491       0.1450744
         4682.773       0.1452481
         4688.064       0.1454223
         4693.356       0.1455966
         4698.657       0.1457713
         4703.963         0.14594
         4709.275       0.1461068
         4714.594        0.146274
         4719.921       0.1464417
         4725.251         0.14661
         4730.585       0.1467784
         4735.927       0.1469475
         4741.276       0.1471169
         4746.633       0.1472869
         4751.994       0.1474571
          4757.36       0.1476277
         4762.733       0.1477986
         4768.109       0.1479698
         4773.499       0.1481418
          4778.89       0.1483138
         4784.284       0.1484863
         4789.687       0.1486591
         4795.096       0.1488324
         4800.514       0.1489991
         4805.936       0.1491002
         4811.363       0.1492014
         4816.797       0.1493029
         4822.234       0.1494047
         4827.683       0.1495069
         4833.135       0.1496093
         4838.593        0.149712
         4844.057       0.1498148
         4849.528       0.1499178
         4855.002       0.1500207
         4860.488       0.1501239
         4865.977       0.1502271
         4871.472       0.1503305
         4876.974       0.1504342
         4882.479       0.1505383
         4887.995       0.1506428
         4893.516       0.1507475
         4899.042       0.1508525
         4904.575       0.1509723
         4910.114       0.1510953
         4915.659       0.1512183
          4921.21       0.1513416
         4926.768       0.1514653
         4932.332       0.1515895
         4937.902       0.1517141
         4943.479        0.151839
         4949.062       0.1519642
         4954.651       0.1520897
         4960.246       0.1522154
         4965.848       0.1523412
         4971.456       0.1524671
         4977.071       0.1525933
         4982.691       0.1527199
         4988.318       0.1528468
         4993.952       0.1529742
         4999.592        0.153102
         5005.241       0.1531693
         5010.894       0.1532321
          5016.55       0.1532951
         5022.215       0.1533583
         5027.887       0.1534217
         5033.568       0.1534853
         5039.252       0.1535489
         5044.943       0.1536126
         5050.641       0.1536765
         5056.342       0.1537404
         5062.058       0.1538045
         5067.772       0.1538687
         5073.495       0.1539331
         5079.225       0.1539977
         5084.958       0.1540624
         5090.707       0.1541274
         5096.456       0.1541925
         5102.211       0.1542648
          5107.97       0.1543485
         5113.739       0.1544322
         5119.514       0.1545159
         5125.299       0.1545995
         5131.087       0.1546833
         5136.882       0.1547671
          5142.68       0.1548513
         5148.488       0.1549359
         5154.305       0.1550207
         5160.126       0.1551057
         5165.954       0.1551908
         5171.788        0.155276
         5177.625       0.1553609
         5183.476        0.155446
          5189.33       0.1555311
          5195.19       0.1556166
         5201.057       0.1557028
         5206.931        0.155792
         5212.812       0.1558813
         5218.698       0.1559706
         5224.592       0.1560599
         5230.492       0.1561491
         5236.399       0.1562383
         5242.313       0.1563276
         5248.233       0.1564171
         5254.161       0.1565067
         5260.094       0.1565965
         5266.035       0.1566866
         5271.982       0.1567768
         5277.938       0.1568671
         5283.896       0.1569572
         5289.863       0.1570475
         5295.837       0.1571378
         5301.818       0.1572278
         5307.809       0.1573173
         5313.803       0.1574067
         5319.804       0.1574961
         5325.809       0.1575858
         5331.824       0.1576756
         5337.848       0.1577654
         5343.876       0.1578552
         5349.911       0.1579451
          5355.95       0.1580344
         5361.999       0.1581236
         5368.058       0.1582127
          5374.12       0.1583017
         5380.189       0.1583907
         5386.265         0.15848
         5392.348       0.1585695
         5398.435        0.158659
         5404.537       0.1587365
         5410.638       0.1588096
         5416.749       0.1588825
         5422.866       0.1589552
          5428.99       0.1590278
         5435.124       0.1591004
         5441.262       0.1591729
         5447.404       0.1592453
         5453.556       0.1593174
         5459.715       0.1593894
         5465.884       0.1594609
         5472.057       0.1595323
         5478.237       0.1596034
          5484.42       0.1596744
         5490.614       0.1597453
         5496.818        0.159816
         5503.026       0.1598833
          5509.24       0.1599469
         5515.462       0.1600103
         5521.691       0.1600736
         5527.927       0.1601368
          5534.17       0.1601996
          5540.42       0.1602623
         5546.677       0.1603244
         5552.941       0.1603863
         5559.212       0.1604481
          5565.49       0.1605096
         5571.775       0.1605709
         5578.068       0.1606322
         5584.368       0.1606933
         5590.674       0.1607544
         5596.991       0.1608157
         5603.309       0.1608593
         5609.637       0.1608869
         5615.972       0.1609143
         5622.314       0.1609413
         5628.667       0.1609679
         5635.023       0.1609944
         5641.384       0.1610209
         5647.755       0.1610477
         5654.134       0.1610744
         5660.522       0.1611011
         5666.915       0.1611276
         5673.312       0.1611537
         5679.719       0.1611796
         5686.133       0.1612051
         5692.555       0.1612305
         5698.986       0.1612559
         5705.422       0.1612809
         5711.866       0.1613058
         5718.313       0.1613307
         5724.771       0.1613554
         5731.243       0.1613801
         5737.712       0.1614045
         5744.192        0.161429
         5750.679       0.1614536
         5757.173       0.1614782
         5763.679       0.1615029
         5770.185       0.1615278
         5776.701       0.1615525
         5783.225       0.1615772
         5789.756       0.1616018
         5796.298       0.1616263
         5802.844       0.1616273
         5809.397       0.1615978
         5815.955       0.1615681
         5822.523       0.1615385
         5829.102       0.1615088
         5835.685       0.1614788
         5842.275       0.1614487
         5848.873       0.1614184
         5855.479       0.1613886
         5862.088       0.1613588
         5868.711       0.1613291
         5875.339       0.1612995
         5881.975         0.16127
         5888.617       0.1612404
         5895.268       0.1612108
         5901.925       0.1611808
         5908.591       0.1611501
         5915.263       0.1611197
         5921.944       0.1610895
         5928.632       0.1610595
         5935.327       0.1610296
          5942.03       0.1609998
         5948.741       0.1609703
         5955.458       0.1609408
         5962.185       0.1609115
         5968.921       0.1608823
         5975.659       0.1608533
         5982.407       0.1608243
         5989.164       0.1607954
         5995.927       0.1607668
         6002.699       0.1607384
         6009.481       0.1607101
         6016.265       0.1606824
         6023.059       0.1606549
         6029.861       0.1606276
          6036.67       0.1606004
         6043.491       0.1605732
         6050.316       0.1605462
         6057.149       0.1605192
         6063.987       0.1604924
         6070.835       0.1604656
         6077.694       0.1604393
         6084.558        0.160413
          6091.43       0.1603866
         6098.309       0.1603604
         6105.196       0.1603151
         6112.094       0.1602635
         6118.993        0.160212
         6125.904       0.1601607
         6132.822       0.1601095
         6139.748        0.160058
         6146.685       0.1600067
         6153.627       0.1599552
         6160.573       0.1599037
          6167.53       0.1598519
         6174.496       0.1598002
         6181.469       0.1597484
         6188.453       0.1596965
         6195.442       0.1596443
         6202.439       0.1595918
          6209.44       0.1595393
         6216.453       0.1594867
         6223.477        0.159434
         6230.505       0.1593813
         6237.541       0.1593288
         6244.585       0.1592758
         6251.638       0.1592225
         6258.698       0.1591688
         6265.766       0.1591144
         6272.842       0.1590597
         6279.926        0.159005
         6287.019         0.15895
         6294.119       0.1588947
         6301.227       0.1588292
         6308.343       0.1587149
         6315.467          0.1586
           6322.6       0.1584848
          6329.74       0.1583693
         6336.889       0.1582534
         6344.045       0.1581373
         6351.209       0.1580208
         6358.382       0.1579037
         6365.563        0.157786
         6372.755       0.1576678
         6379.949       0.1575491
         6387.154       0.1574297
         6394.367       0.1573097
         6401.589       0.1571893
         6408.822       0.1570684
          6416.06       0.1569468
         6423.305       0.1568247
         6430.556       0.1567021
         6437.818       0.1565788
         6445.092       0.1564548
         6452.371       0.1563304
         6459.658       0.1562052
         6466.953       0.1560791
         6474.256       0.1559522
         6481.568       0.1558245
         6488.888       0.1556958
         6496.216       0.1555663
         6503.552       0.1554146
         6510.897       0.1552391
         6518.247       0.1550625
         6525.615       0.1548846
         6532.981       0.1547064
         6540.359       0.1545277
         6547.745       0.1543482
          6555.14       0.1541684
         6562.546        0.153988
         6569.958       0.1538071
         6577.377       0.1536252
         6584.802       0.1534426
         6592.238       0.1532593
         6599.687       0.1530752
          6607.14       0.1528902
         6614.602       0.1527048
         6622.072       0.1525192
         6629.547       0.1523336
         6637.038       0.1521476
         6644.533       0.1519612
         6652.037       0.1517741
         6659.549       0.1515864
          6667.07       0.1513979
           6674.6        0.151209
         6682.138       0.1510197
         6689.684       0.1508302
         6697.239       0.1506407
         6704.802       0.1504105
         6712.374       0.1501569
         6719.955       0.1499033
         6727.544       0.1496495
         6735.142       0.1493953
         6742.748       0.1491409
         6750.363       0.1488864
          6757.99       0.1486316
         6765.618       0.1483771
         6773.259       0.1481224
         6780.908       0.1478675
         6788.566       0.1476125
         6796.236       0.1473571
         6803.912       0.1471021
         6811.596       0.1468473
         6819.284       0.1465928
         6826.986       0.1463383
         6834.699       0.1460838
         6842.418       0.1458295
         6850.146       0.1455754
         6857.882       0.1453214
         6865.623       0.1450675
         6873.376       0.1448134
         6881.143       0.1445591
         6888.914       0.1443048
         6896.693       0.1440509
         6904.482       0.1437754
         6912.276       0.1434845
          6920.09       0.1431937
         6927.901       0.1429042
         6935.725       0.1426148
         6943.558       0.1423252
         6951.399       0.1420357
         6959.254       0.1417463
         6967.113       0.1414579
         6974.981       0.1411702
         6982.854       0.1408832
         6990.741       0.1405963
          6998.64       0.1403097
         7006.543       0.1400237
         7014.456       0.1397382
         7022.374       0.1394533
         7030.305       0.1391691
         7038.248       0.1388855
         7046.196       0.1386025
         7054.154       0.1383198
         7062.121       0.1380374
         7070.096       0.1377554
         7078.077       0.1374741
         7086.074        0.137193
         7094.077       0.1369126
         7102.088       0.1366167
         7110.109       0.1362761
         7118.139       0.1359364
         7126.178       0.1355972
         7134.226       0.1352585
         7142.282       0.1349206
         7150.348       0.1345833
         7158.423       0.1342471
         7166.512       0.1339116
         7174.601        0.133577
         7182.704       0.1332427
         7190.815       0.1329089
         7198.937       0.1325758
          7207.07       0.1322435
         7215.209        0.131912
         7223.358       0.1315812
         7231.512       0.1312512
         7239.678       0.1309214
         7247.854       0.1305924
         7256.044       0.1302639
         7264.238       0.1299363
         7272.438       0.1296096
         7280.651       0.1292835
         7288.874       0.1289577
         7297.109       0.1286325
          7305.35       0.1283169
           7313.6       0.1280069
         7321.855        0.127698
         7330.125       0.1273895
         7338.411       0.1270816
         7346.694       0.1267747
         7354.991       0.1264682
         7363.297       0.1261621
         7371.613       0.1258566
         7379.942       0.1255515
         7388.277       0.1252476
         7396.616       0.1249444
          7404.97       0.1246419
         7413.333         0.12434
         7421.708       0.1240387
          7430.09        0.123738
         7438.481       0.1234383
         7446.878       0.1231393
         7455.288       0.1228407
         7463.708       0.1225424
         7472.141       0.1222443
         7480.579       0.1219466
         7489.027       0.1216502
         7497.485       0.1213561
         7505.948       0.1209395
         7514.429       0.1204721
         7522.915       0.1200075
         7531.411        0.119545
         7539.917       0.1190841
         7548.432       0.1186251
         7556.957       0.1181673
         7565.491       0.1177106
         7574.035       0.1172551
         7582.588       0.1168009
         7591.152       0.1163479
         7599.729       0.1158959
         7608.308       0.1154458
           7616.9       0.1149967
         7625.502       0.1145488
         7634.114       0.1141021
         7642.735       0.1136566
         7651.371       0.1132119
         7660.007        0.112769
         7668.658       0.1123274
         7677.318        0.111887
         7685.989       0.1114477
         7694.673       0.1110094
         7703.363       0.1105211
         7712.059       0.1099527
         7720.768       0.1093864
         7729.487       0.1088224
         7738.221       0.1082606
          7746.96       0.1077013
         7755.709       0.1071442
         7764.468       0.1065894
         7773.232        0.106037
         7782.015       0.1054862
         7790.804       0.1049379
         7799.602       0.1043919
          7808.41       0.1038484
         7817.229       0.1033069
         7826.061       0.1027674
         7834.895       0.1022306
         7843.744       0.1016957
         7852.602        0.101163
          7861.47       0.1006325
         7870.348        0.100104
         7879.241      0.09957773
         7888.135      0.09905418
         7897.043      0.09853251
         7905.961       0.0980155
          7914.89      0.09750182
         7923.833         0.09699
         7932.782      0.09648053
         7941.741      0.09597334
         7950.705      0.09546896
         7959.684      0.09496687
         7968.678      0.09446678
         7977.677      0.09396993
         7986.687      0.09348044
         7995.706      0.09300356
         8004.736      0.09254187
         8013.776      0.09209367
         8022.826      0.09165487
         8031.887      0.09122193
         8040.958      0.09079269
         8050.039      0.09036602
         8059.134      0.08994114
         8068.231      0.08951819
         8077.343      0.08909662
         8086.465      0.08867661
         8095.597      0.08825804
          8104.74      0.08785919
         8113.893      0.08747873
         8123.056      0.08709943
          8132.23      0.08672139
         8141.414       0.0863445
         8150.608       0.0859687
         8159.818      0.08559404
         8169.033       0.0852209
         8178.254      0.08484903
          8187.49       0.0844782
         8196.736      0.08410859
         8205.998      0.08373988
         8215.266      0.08337253
         8224.543      0.08300643
         8233.831      0.08264144
         8243.126      0.08227772
         8252.439      0.08191494
         8261.759      0.08155347
          8271.09      0.08119304
         8280.431      0.08083391
         8289.782      0.08047599
         8299.144      0.08011921
         8308.517      0.07976536
         8317.899      0.07941283
         8327.293      0.07906133
         8336.697      0.07871102
         8346.112      0.07836181
         8355.543      0.07801356
         8364.975      0.07766686
         8374.421      0.07732107
         8383.879      0.07697637
         8393.347      0.07663289
          8402.83      0.07629037
          8412.32      0.07594908
          8421.82      0.07560887
         8431.327      0.07527001
         8440.849      0.07493214
         8450.386      0.07459522
          8459.93      0.07425968
         8469.483      0.07392535
         8479.048      0.07359235
         8488.624      0.07326127
         8498.211      0.07293289
         8507.808      0.07279018
         8517.416      0.07269129
         8527.035      0.07259329
         8536.665       0.0724956
         8546.301      0.07239819
         8555.957      0.07230081
          8565.62      0.07220344
         8575.294      0.07210608
         8584.978      0.07200879
         8594.673      0.07191143
          8604.38      0.07181406
         8614.097      0.07171673
         8623.825      0.07161941
         8633.564      0.07152209
         8643.314      0.07142477
          8653.08      0.07132737
         8662.848      0.07123001
         8672.631      0.07113267
         8682.426      0.07103531
         8692.231      0.07093796
         8702.053      0.07082699
          8711.88      0.07066461
         8721.719       0.0705025
         8731.563      0.07034063
         8741.425      0.07017882
         8751.296      0.07001721
         8761.185      0.06985565
         8771.079      0.06969425
         8780.984      0.06953311
         8790.901      0.06937215
         8800.824      0.06921142
         8810.768      0.06905071
         8820.718      0.06889012
          8830.68      0.06872982
         8840.652      0.06856971
         8850.632      0.06840981
         8860.632      0.06824994
         8870.639      0.06809028
         8880.656      0.06793074
         8890.686      0.06777145
         8900.727      0.06761288
         8910.783      0.06746181
         8920.847      0.06731094
         8930.916      0.06716032
         8941.002      0.06700973
           8951.1       0.0668592
         8961.214      0.06670886
         8971.334      0.06655911
         8981.466      0.06641017
         8991.608      0.06626204
         9001.758      0.06611861
         9011.924      0.06599565
         9022.106      0.06587388
         9032.296      0.06575322
         9042.496      0.06563368
         9052.703      0.06551533
         9062.927       0.0653979
         9073.167      0.06528147
         9083.414      0.06516607
         9093.672      0.06505158
         9103.941      0.06492229
         9114.224      0.06476852
         9124.517      0.06461579
         9134.821      0.06446395
         9145.137      0.06431305
         9155.465      0.06416298
         9165.805      0.06401376
         9176.161      0.06386527
         9186.519      0.06371769
         9196.894      0.06357078
          9207.28      0.06342453
         9217.679      0.06327894
         9228.088      0.06313405
         9238.515      0.06298968
         9248.948      0.06284596
         9259.389      0.06270288
         9269.846      0.06256021
         9280.314      0.06241803
           9290.8      0.06227627
         9301.292      0.06211754
         9311.797      0.06183448
         9322.308       0.0615528
         9332.836      0.06127203
         9343.381      0.06099226
         9353.933      0.06071367
         9364.496      0.06043619
         9375.072      0.06015966
         9385.654      0.05988423
         9396.259      0.05960957
         9406.871      0.05933591
         9417.494      0.05906312
          9428.13      0.05879121
         9438.777      0.05852016
         9449.442      0.05824978
         9460.113      0.05798033
         9470.792      0.05771183
         9481.488      0.05744397
         9492.195      0.05717681
         9502.916      0.05684403
         9513.653      0.05633486
         9524.397      0.05582959
         9535.148      0.05532822
         9545.916      0.05483017
         9556.697      0.05433558
         9567.495      0.05384432
           9578.3      0.05335672
         9589.117      0.05287253
         9599.941      0.05239189
         9610.783      0.05191473
         9621.642      0.05144065
         9632.508      0.05097004
         9643.387      0.05050266
         9654.277      0.05003845
          9665.18      0.04957743
         9676.095      0.04911948
         9687.022      0.04866456
         9697.963      0.04821272
         9708.915      0.04763788
          9719.88      0.04703979
         9730.856      0.04644841
         9741.846      0.04586317
         9752.848      0.04528382
         9763.862       0.0447104
         9774.889      0.04414288
         9785.928      0.04358111
         9796.985      0.04302476
         9808.049       0.0424744
          9819.12      0.04192984
         9830.209       0.0413907
         9841.312      0.04085753
         9852.431      0.04032962
         9863.558      0.03980725
         9874.691      0.03929048
         9885.843       0.0387787
         9897.008      0.03827205
          9908.19      0.03758072
          9919.38      0.03683166
         9930.582      0.03609637
         9941.797      0.03537469
          9953.02      0.03466598
         9964.265      0.03396904
         9975.519      0.03328463
         9986.784      0.03261232
         9998.063       0.0319518
         10009.35      0.03130332
         10020.65      0.03066672
         10031.98       0.0300417
         10043.31      0.02942847
         10054.65      0.02882637
           10066.      0.02823575
         10077.36      0.02765526
         10088.75      0.02708483
         10100.15      0.02652212
         10111.56      0.02571472
         10122.97      0.02493029
         10134.41      0.02416809
         10145.85      0.02342759
         10157.31      0.02270826
         10168.78      0.02200952
         10180.27      0.02133115
         10191.76      0.02067425
         10203.27      0.02003619
         10214.79      0.01941653
         10226.33      0.01881472
         10237.88      0.01823032
         10249.44      0.01766281
         10261.02      0.01711313
         10272.61      0.01658014
         10284.21      0.01606263
         10295.82      0.01556024
         10307.45      0.01502057
         10319.09       0.0144696
         10330.74       0.0139387
         10342.41      0.01342753
         10354.09      0.01293401
         10365.78      0.01245761
         10377.49      0.01199777
         10389.21      0.01155394
         10400.94      0.01112665
         10412.69      0.01071518
         10424.45      0.01031809
         10436.22     0.009934854
         10448.01     0.009565068
         10459.81      0.00920827
         10471.62     0.008865518
         10483.44     0.008534982
         10495.28     0.008216068
         10507.15     0.007939662
           10519.     0.007693192
         10530.88     0.007454123
         10542.78     0.007222503
         10554.68     0.006997633
          10566.6     0.006779322
         10578.55      0.00656719
         10590.48     0.006361873
         10602.44     0.006163036
         10614.42     0.005970019
          10626.4     0.005782663
         10638.42     0.005600643
         10650.43     0.005424322
         10662.46     0.005253816
         10674.49     0.005088485
         10686.54      0.00492789
         10698.62     0.004771887
         10710.71       0.0046209
          10722.8      0.00447484
         10734.91     0.004333102
         10747.03     0.004195586
         10759.16     0.004062295
         10771.32     0.003933091
         10783.49     0.003808102
         10795.66     0.003686847
         10807.86     0.003569207
         10820.06     0.003455108
         10832.28     0.003344958
         10844.51     0.003238101
         10856.76     0.003134454
         10869.02     0.003033916
          10881.3     0.002936691
         10893.59     0.002842586
         10905.89     0.002751327
         10918.21     0.002662814
         10930.54     0.002577069
         10942.88     0.002494256
         10955.24     0.002413938
         10967.61     0.002336052
           10980.     0.002260509
